onset	duration	trial_type	response_time	trial_number	response_error
16	4	baseline	0.928634	1	-12.6131629778193
20	4	baseline	0.9978	2	3.2059024435409
24	4	baseline	1.142416	3	-2.17930371215938
28	4	baseline	1.054256	4	-6.98276176912464
32	4	baseline	1.266138	5	4.18475995744488
36	4	baseline	0.93438	6	-7.22772813542839
40	4	baseline	1.166506	7	-5.6192023768851
44	4	baseline	1.182918	8	-7.87097252271036
48	4	baseline	0.834658	9	-14.6129705036167
52	4	baseline	1.082704	10	-4.73696283110856
56	4	baseline	1.126811	11	-5.14593493112468
60	4	baseline	1.258826	12	5.51150171358912
64	4	baseline	0.932638	13	19.3506185247769
68	4	baseline	0.994834	14	3.15778875457597
72	4	baseline	1.042951	15	-7.13714203947392
76	4	baseline	1.148351	16	-0.162958010795497
80	4	baseline	1.216827	17	-2.14966363486786
84	4	baseline	0.870683	18	-2.67878269169823
88	4	baseline	1.17822	19	5.93216008531073
92	4	baseline	1.666807	20	5.17224766666267
96	4	baseline	1.124933	21	-1.56955513259084
100	4	baseline	1.143026	22	-13.239927436217
104	4	baseline	0.955204	23	4.82339036582961
108	4	baseline	1.018657	24	-13.2239523489198
112	4	baseline	1.305786	25	-11.5068856868784
116	4	baseline	1.136334	26	11.1061549552049
120	4	baseline	1.027483	27	-3.73216003601438
124	4	baseline	0.993581	28	9.62191560985925
128	4	baseline	0.826679	29	-15.0984217093594
132	4	baseline	0.824737	30	23.9446855037272
136	4	baseline	1.026373	31	18.429796822793
140	4	baseline	0.888556	32	-19.0291346880368
144	4	baseline	0.991023	33	4.8867965852094
148	4	baseline	0.59076	34	-11.0070461761365
152	4	baseline	0.769253	35	16.9255207326097
156	4	baseline	1.188364	36	-4.18147726738382
160	4	baseline	0.722272	37	-3.2997323462955
164	4	baseline	1.149983	38	7.26596720655708
168	4	baseline	0.850541	39	37.1851593191084
172	4	baseline	1.095973	40	-6.37170366561296
176	4	baseline	1.133051	41	-5.66933519622673
180	4	baseline	0.909071	42	4.83645587558793
184	4	baseline	0.75853	43	-2.16938337950418
188	4	baseline	0.963018	44	0.127436683588456
192	4	baseline	1.343997	45	0.923777095554844
196	4	baseline	1.124403	46	-21.5675097532921
200	4	baseline	1.35501	47	-1.98474456053104
204	4	baseline	1.153937	48	-0.0156911631418794
208	4	baseline	1.384821	49	-27.1958267888182
212	4	baseline	0.876039	50	30.3408895546829
216	4	baseline	1.098333	51	12.5968090858763
220	4	baseline	1.043011	52	-8.75996051692444
224	4	baseline	0.660945	53	-7.27042146620088
228	4	baseline	0.87459	54	-7.7178252734332
232	4	baseline	0.925673	55	18.1716175634605
236	4	baseline	1.051639	56	-7.17267719163081
240	4	baseline	1.105784	57	-4.7409974004208
244	4	baseline	0.873091	58	8.38300968755839
248	4	baseline	0.926363	59	-9.44493474491738
252	4	baseline	1.124771	60	-9.87736651225256
256	4	baseline	0.916377	61	3.42097396844078
260	4	baseline	0.814826	62	1.26146926165671
264	4	baseline	0.706826	63	-3.12580419924548
268	4	baseline	1.008393	64	10.1868501152353
272	4	baseline	0.612968	65	-16.9430916850471
276	4	baseline	0.864945	66	3.92997404333733
280	4	baseline	0.826834	67	3.31134508603512
284	4	baseline	1.080217	68	-18.3187078698044
288	4	baseline	0.851061	69	-7.01954477406152
292	4	baseline	1.045311	70	-2.20150742126385
296	4	baseline	1.005421	71	22.9622527835122
300	4	baseline	1.128732	72	1.50032736614785
304	4	baseline	1.50347	73	14.571602015083
308	4	baseline	1.149431	74	1.14542312685968
312	4	baseline	1.05133	75	-8.81643200137357
316	4	baseline	0.958593	76	-6.52694164363723
320	4	baseline	1.039228	77	-1.4863913581924
324	4	baseline	0.909573	78	6.2521091157719
328	4	baseline	1.471635	79	-32.5826842541702
332	4	baseline	1.107575	80	-6.2937518310698
336	4	baseline	1.024469	81	-13.497497176117
340	4	baseline	0.991761	82	-5.46444888851685
344	4	baseline	0.748634	83	-5.1446683610087
348	4	baseline	1.093917	84	0.59568057274765
352	4	baseline	0.877924	85	5.68078147990078
356	4	baseline	1.231953	86	-11.0307876428092
360	4	baseline	0.836797	87	0.260434767267821
364	4	baseline	0.89703	88	0.22923682363254
368	4	baseline	0.924109	89	-15.0459442523476
372	4	baseline	0.72623	90	-1.09112521593272
376	4	baseline	1.109215	91	15.7726238112522
380	4	baseline	1.29228	92	-7.78274097226861
384	4	baseline	0.528349	93	-3.05275057314893
388	4	baseline	1.097681	94	-5.51280188362798
392	4	baseline	0.670481	95	-5.84451197169274
396	4	baseline	1.14065	96	-11.4336610370101
400	4	baseline	1.042731	97	-2.11085920642373
404	4	baseline	0.71469	98	2.94557772383014
408	4	baseline	0.840942	99	2.54931821536884
412	4	baseline	0.926423	100	3.45112908710628
416	4	baseline	0.772936	101	-2.22413058215652
420	4	baseline	1.048865	102	3.66515134189391
424	4	baseline	0.811034	103	-4.09908356821613
428	4	baseline	1.050962	104	-1.89997888412301
432	4	baseline	0.555549	105	8.44123732064313
436	4	baseline	0.719115	106	-6.7828351743029
440	4	baseline	1.055405	107	-7.78387747372118
444	4	baseline	0.82524	108	-3.90138176611812
448	4	baseline	0.937301	109	3.15713152439801
452	4	baseline	0.881742	110	-3.37628495403385
456	4	baseline	0.871345	111	2.30093911783994
460	4	baseline	0.949816	112	-13.455128784612
464	4	baseline	0.783516	113	13.0283345226339
468	4	baseline	1.063473	114	-5.12152474806952
472	4	baseline	0.757978	115	-2.30975256599807
476	4	baseline	0.840016	116	-4.13147366249595
480	4	baseline	0.923777	117	-10.2430253871408
484	4	baseline	0.703793	118	8.53000672653934
488	4	baseline	0.812422	119	0.334978818257302
492	4	baseline	0.519829	120	15.4746541430802
496	4	rotation	0.82588	121	48.6849164838414
500	4	rotation	0.988721	122	10.9671752276412
504	4	rotation	0.977844	123	-13.2213331124438
508	4	rotation	1.035714	124	-14.5843485694817
512	4	rotation	1.272162	125	-4.78298078592303
516	4	rotation	0.88626	126	-1.67728279549284
520	4	rotation	0.925519	127	-7.4677335683769
524	4	rotation	0.872315	128	-18.5067685871959
528	4	rotation	1.034362	129	-4.05290491876056
532	4	rotation	1.162405	130	9.6666837762713
536	4	rotation	1.162661	131	9.40129593142498
540	4	rotation	1.162417	132	8.28485686966437
544	4	rotation	0.842406	133	-8.56568843237733
548	4	rotation	1.13829	134	-5.45670618499304
552	4	rotation	1.144426	135	14.7878920881796
556	4	rotation	1.474736	136	-16.4593702883934
560	4	rotation	1.072719	137	-10.4509488318055
564	4	rotation	0.744865	138	19.4384811766686
568	4	rotation	1.514627	139	-7.31939189356067
572	4	rotation	0.780961	140	0.842782642121327
576	4	rotation	0.969368	141	-1.9833117618998
580	4	rotation	1.041105	142	-18.8488574309139
584	4	rotation	1.027173	143	-26.0826871638874
588	4	rotation	1.091138	144	0.137779102618167
592	4	rotation	0.915474	145	-3.91898540396626
596	4	rotation	1.225216	146	-5.63531339103599
600	4	rotation	1.037447	147	19.1954154903982
604	4	rotation	1.235331	148	-24.94280051314
608	4	rotation	0.857549	149	4.99511935295565
612	4	rotation	0.689603	150	-11.5917191833143
616	4	rotation	1.183441	151	-8.59117899763489
620	4	rotation	0.899634	152	-9.97535130570645
624	4	rotation	1.401595	153	-0.267086770947079
628	4	rotation	0.989833	154	-0.952962088783048
632	4	rotation	1.061702	155	-15.9540274915253
636	4	rotation	0.931876	156	8.19135594671042
640	4	rotation	1.051947	157	-7.55309052471088
644	4	rotation	1.150002	158	-1.40512627257061
648	4	rotation	0.972141	159	-7.12811201296477
652	4	rotation	0.895859	160	2.78161337589604
656	4	rotation	0.792132	161	9.1346954580567
660	4	rotation	1.004173	162	5.45935258872922
664	4	rotation	1.076317	163	2.85530308035858
668	4	rotation	1.170207	164	-9.47634098241753
672	4	rotation	0.864284	165	3.1236353055731
676	4	rotation	1.28041	166	8.9071124760131
680	4	rotation	1.380463	167	1.95663047168589
684	4	rotation	1.182517	168	4.07934799101793
688	4	rotation	0.770562	169	9.34754490151048
692	4	rotation	0.91858	170	14.4351135684567
696	4	rotation	0.743584	171	-8.06038884316311
700	4	rotation	0.758932	172	19.2485842200416
704	4	rotation	0.716737	173	5.23447021576745
708	4	rotation	0.954941	174	-12.0668303765513
712	4	rotation	0.846891	175	-10.5124034230615
716	4	rotation	1.618921	176	-11.2854243289957
720	4	rotation	1.411249	177	11.9884861296643
724	4	rotation	1.491023	178	2.9497693729954
728	4	rotation	1.057173	179	12.7667715528484
732	4	rotation	1.291166	180	12.2742004707748
736	4	rotation	1.120794	181	-4.20549127754482
740	4	rotation	0.857322	182	1.27712400204919
744	4	rotation	0.86934	183	-10.729850842337
748	4	rotation	0.989414	184	-3.31804271210232
752	4	rotation	0.863673	185	-6.34378920917935
756	4	rotation	0.851483	186	-2.7505424314089
760	4	rotation	0.956948	187	-10.170935506885
764	4	rotation	1.215803	188	19.4887729348918
768	4	rotation	0.893633	189	9.50174952385447
772	4	rotation	0.753674	190	-16.5602325560927
776	4	rotation	0.993759	191	-141.34019174591
780	4	rotation	0.859725	192	11.4707306475814
784	4	rotation	1.187916	193	-28.2299505744996
788	4	rotation	0.785693	194	83.65980825409
792	4	rotation	0.706107	195	-8.54889617595052
796	4	rotation	0.945955	196	-10.8731086430664
800	4	rotation	0.890165	197	-4.03452529356119
804	4	rotation	0.732061	198	-17.129652285701
808	4	rotation	0.932184	199	-2.24120136294264
812	4	rotation	0.752123	200	-20.4016380487098
816	4	rotation	0.902325	201	-18.8355977287375
820	4	rotation	0.888465	202	5.9933762556154
824	4	rotation	0.892385	203	-21.7690989876973
828	4	rotation	0.832476	204	11.0666516180432
832	4	rotation	0.826708	205	18.557227443168
836	4	rotation	1.494563	206	13.4398875229397
840	4	rotation	1.052833	207	-4.38984245028702
844	4	rotation	0.822755	208	5.30283044470385
848	4	rotation	0.808718	209	3.09906396655733
852	4	rotation	0.868725	210	-13.8209253887544
856	4	rotation	0.900842	211	-8.39826656529144
860	4	rotation	0.590918	212	-27.7198930792722
864	4	rotation	0.994975	213	3.70220699802958
868	4	rotation	1.055695	214	-4.54711253851106
872	4	rotation	1.061158	215	2.42375236053806
876	4	rotation	1.029105	216	-2.89645024743905
880	4	rotation	1.028023	217	-8.19271721893392
884	4	rotation	0.685282	218	-1.74423623908393
888	4	rotation	0.763476	219	-6.76753509812604
892	4	rotation	0.93339	220	-10.2500784850485
896	4	rotation	1.041728	221	-1.35577407457668
900	4	rotation	0.903513	222	-3.62345161340385
904	4	rotation	0.731736	223	-12.1938600820111
908	4	rotation	0.82166	224	-10.968778339707
912	4	rotation	0.699496	225	11.7791476050431
916	4	rotation	0.949701	226	-2.98492730137871
920	4	rotation	1.129871	227	10.1959581301366
924	4	rotation	0.771826	228	-25.6823681478723
928	4	rotation	1.116118	229	-14.356628545257
932	4	rotation	0.996362	230	4.36633265334403
936	4	rotation	0.798052	231	5.60383936748072
940	4	rotation	1.072133	232	-16.7909079690977
944	4	rotation	1.068046	233	-8.70892627327287
948	4	rotation	0.72411	234	-0.879464781551709
952	4	rotation	0.864083	235	-4.70102791985155
956	4	rotation	1.150332	236	16.1138156876087
960	4	rotation	1.060982	237	-40.8551376626357
964	4	rotation	1.444735	238	-30.8804192954213
968	4	rotation	1.030375	239	32.9482126709708
972	4	rotation	0.73835	240	8.59850419415606
976	4	rotation	0.76829	241	-6.92260344118438
980	4	rotation	0.926492	242	0.314788810280484
984	4	rotation	1.00267	243	-22.2319328724163
988	4	rotation	0.924642	244	-19.1923379100913
992	4	rotation	1.020771	245	2.08059559633773
996	4	rotation	0.798784	246	3.12043249814116
1000	4	rotation	0.868867	247	3.50131582875802
1004	4	rotation	0.997436	248	14.1689089918453
1008	4	rotation	1.286826	249	-6.84493315614813
1012	4	rotation	0.958989	250	-8.87855797265692
1016	4	rotation	0.737261	251	-4.4997386635173
1020	4	rotation	0.505195	252	-17.7990863176741
1024	4	rotation	1.008971	253	40.7290959872007
1028	4	rotation	1.007368	254	8.48963775139399
1032	4	rotation	1.043256	255	15.3424173159901
1036	4	rotation	1.737208	256	-1.94348760270239
1040	4	rotation	1.959133	257	9.5925087457697
1044	4	rotation	0.821217	258	3.07650021457886
1048	4	rotation	0.765504	259	0.883302715633405
1052	4	rotation	1.029545	260	1.54955692197454
1056	4	rotation	0.639332	261	-20.6907065885737
1060	4	rotation	1.253503	262	-13.203325670634
1064	4	rotation	0.963737	263	6.92305918115361
1068	4	rotation	0.979877	264	-6.93339502572728
1072	4	rotation	1.167692	265	3.63847648962047
1076	4	rotation	0.929957	266	5.08996995191141
1080	4	rotation	1.077892	267	7.10345507665563
1084	4	rotation	1.04397	268	-141.34019174591
1088	4	rotation	0.816053	269	-0.98390817559122
1092	4	rotation	1.136145	270	-17.7476821000319
1096	4	rotation	0.90457	271	-13.6610977472358
1100	4	rotation	0.788153	272	-2.17494744523909
1104	4	rotation	0.986174	273	6.04509910274436
1108	4	rotation	1.188706	274	-6.76153311543313
1112	4	rotation	0.740663	275	4.99893174834474
1116	4	rotation	0.842522	276	-7.87096599054001
1120	4	rotation	0.744488	277	8.75945010526345
1124	4	rotation	0.774549	278	-33.494580000744
1128	4	rotation	0.944548	279	-4.66416291603877
1132	4	rotation	1.004679	280	-5.78033810834586
1136	4	rotation	0.864674	281	2.16600872849082
1140	4	rotation	0.988907	282	-9.35828813011951
1144	4	rotation	0.836754	283	11.66246671047
1148	4	rotation	1.012842	284	2.37851009217076
1152	4	rotation	0.918878	285	-6.53815990518875
1156	4	rotation	1.155062	286	-10.3734105746429
1160	4	rotation	0.936987	287	-7.16287271298196
1164	4	rotation	1.078831	288	14.4744220806609
1168	4	rotation	0.979129	289	12.0263205225189
1172	4	rotation	1.159153	290	2.5859967874107
1176	4	rotation	1.153146	291	-6.2504222053047
1180	4	rotation	1.239276	292	-2.97870906096047
1184	4	rotation	0.785339	293	17.0934409231248
1188	4	rotation	1.063355	294	18.4751782739884
1192	4	rotation	1.061482	295	-9.44882663807618
1196	4	rotation	1.837489	296	-9.21770122645126
1200	4	rotation	1.08343	297	18.5643874932519
1204	4	rotation	1.009627	298	-3.863066803234
1208	4	rotation	0.725642	299	2.69067999824131
1212	4	rotation	0.739825	300	-6.28464030794342
1216	4	rotation	0.92813	301	5.92490968192865
1220	4	rotation	0.969729	302	-17.3821259836988
1224	4	rotation	0.896296	303	8.62441226000606
1228	4	rotation	0.843866	304	34.3369078085948
1232	4	rotation	1.073997	305	-9.78327974995705
1236	4	rotation	1.267925	306	-2.79539271119409
1240	4	rotation	0.900138	307	-4.03319715204003
1244	4	rotation	1.055797	308	-2.34092751492008
1248	4	rotation	1.196106	309	-3.02637115141821
1252	4	rotation	1.056259	310	-11.9187576886679
1256	4	rotation	0.88233	311	22.6265369534249
1260	4	rotation	1.226401	312	-6.10852632212987
1264	4	rotation	0.700401	313	-13.5642187395584
1268	4	rotation	1.002562	314	-3.28283939738329
1272	4	rotation	0.930617	315	-2.94121711395075
1276	4	rotation	1.074635	316	-7.59195101290713
1280	4	rotation	0.918401	317	8.31600021861735
1284	4	rotation	0.990573	318	1.59531680637031
1288	4	rotation	0.828568	319	11.6716042221987
1292	4	rotation	1.188635	320	-7.71168310322964
1296	4	rotation	1.064827	321	7.40525844394035
1300	4	rotation	0.788776	322	-13.7861008222811
1304	4	rotation	0.84713	323	-11.0636556815324
1308	4	rotation	0.932983	324	-0.350633452053878
1312	4	rotation	0.829298	325	-13.9668046708773
1316	4	rotation	1.03719	326	7.7587010411604
1320	4	rotation	0.917182	327	-4.98119207888063
1324	4	rotation	0.773314	328	15.8222216861181
1328	4	rotation	0.8093	329	14.8952991948316
1332	4	rotation	0.921418	330	-5.46356788781535
1336	4	rotation	0.831409	331	-4.1411819295192
1340	4	rotation	0.939507	332	6.07790405830857
1344	4	rotation	0.983244	333	0.160115163046542
1348	4	rotation	0.867636	334	6.84507684031925
1352	4	rotation	1.159541	335	-28.0440061238885
1356	4	rotation	1.401648	336	-7.59167361349711
1360	4	rotation	0.981891	337	-7.00742365017752
1364	4	rotation	0.91777	338	3.35547727028715
1368	4	rotation	1.175834	339	0.660225658273052
1372	4	rotation	1.543867	340	-9.87202802321678
1376	4	rotation	1.140116	341	-2.07808267046344
1380	4	rotation	0.795906	342	-11.224422177193
1384	4	rotation	0.001934	343	8.0629119348928
1388	4	rotation	1.478112	344	-6.57872953921218
1392	4	rotation	1.072116	345	-19.7480096631263
1396	4	rotation	1.016255	346	4.53735229903513
1400	4	rotation	1.060013	347	3.50879050029185
1404	4	rotation	0.872396	348	-8.05660778449337
1408	4	rotation	1.028543	349	-0.437701812365284
1412	4	rotation	0.79285	350	-1.84730353579317
1416	4	rotation	0.88253	351	-16.2323808383812
1420	4	rotation	1.282101	352	-28.105756575456
1424	4	rotation	1.054721	353	-25.074035202147
1428	4	rotation	0.880629	354	-7.61373961100159
1432	4	rotation	1.398726	355	51.6206428230208
1436	4	rotation	0.956271	356	-2.55688874831079
1440	4	rotation	0.840317	357	-3.02549184484771
1444	4	rotation	1.01688	358	0.771297252746534
1448	4	rotation	1.061241	359	1.88006751270976
1452	4	rotation	0.939003	360	-2.41307514067265
1456	4	rotation	0.877019	361	-12.0655968224387
1460	4	rotation	0.868544	362	7.90609555770118
1464	4	rotation	1.067102	363	31.4925817537111
1468	4	rotation	1.245994	364	-2.2915436191396
1472	4	rotation	1.427922	365	7.66492828018009
1476	4	rotation	1.253325	366	-5.84110458443014
1480	4	rotation	1.057392	367	-8.3095552442724
1484	4	rotation	0.937343	368	-1.6265419775453
1488	4	rotation	1.053501	369	18.2907620066774
1492	4	rotation	1.08731	370	0.2358056481909
1496	4	rotation	0.857653	371	-8.05526719444823
1500	4	rotation	0.789633	372	-3.67125016106057
1504	4	rotation	0.717662	373	-32.1625433183581
1508	4	rotation	0.948101	374	-19.4167733843831
1512	4	rotation	0.92184	375	5.82001229894141
1516	4	rotation	1.077673	376	-6.88547069659195
1520	4	rotation	0.889214	377	9.30470254174899
1524	4	rotation	1.205915	378	9.02370434471471
1528	4	rotation	1.293779	379	6.05309283439508
1532	4	rotation	1.409452	380	7.17267530616159
1536	4	rotation	0.697917	381	-13.9580165353373
1540	4	rotation	1.04207	382	-96.3401917459098
1544	4	rotation	1.53409	383	-11.8901459029356
1548	4	rotation	0.848289	384	-10.1109242983143
1552	4	rotation	0.840453	385	-17.3112976700847
1556	4	rotation	0.868652	386	-11.6173184022863
1560	4	rotation	0.976506	387	1.29758339165883
1564	4	rotation	1.014524	388	-16.8208998349629
1568	4	rotation	0.878462	389	3.57452520540224
1572	4	rotation	1.580684	390	-7.3052764438681
1576	4	rotation	1.194675	391	-21.3077015531393
1580	4	rotation	1.422704	392	14.1373645296255
1584	4	rotation	1.272825	393	5.24033400717464
1588	4	rotation	1.060828	394	-19.4388955501266
1592	4	rotation	0.718816	395	3.54163798210564
1596	4	rotation	1.54108	396	-6.30611330932031
1600	4	rotation	0.821486	397	6.36941168939127
1604	4	rotation	1.067251	398	20.1683831705116
1608	4	rotation	1.094322	399	-20.8655371453121
1612	4	rotation	1.657199	400	-1.85186734358658
1616	4	rotation	0.941284	401	-10.884684245171
1620	4	rotation	1.107631	402	-11.9693060368401
1624	4	rotation	1.010979	403	-5.3802710074224
1628	4	rotation	0.839188	404	-1.14622373586858
1632	4	rotation	1.089524	405	-20.5876825723148
1636	4	rotation	0.785472	406	1.27261176433049
1640	4	rotation	1.182485	407	-8.62602158486198
1644	4	rotation	1.469566	408	21.3644788812727
1648	4	rotation	1.231372	409	-0.621412031082565
1652	4	rotation	1.081915	410	21.4346968750583
1656	4	rotation	1.079842	411	-3.11890987449381
1660	4	rotation	0.795859	412	0.499242969732777
1664	4	rotation	1.089897	413	-4.48851034679174
1668	4	rotation	0.795554	414	7.69645570179359
1672	4	rotation	1.017979	415	4.54077732269304
1676	4	rotation	1.048032	416	-12.8950639992458
1680	4	rotation	1.408124	417	41.6844693321956
1684	4	rotation	1.050099	418	8.15824184074001
1688	4	rotation	1.085287	419	18.5372074281377
1692	4	rotation	1.114236	420	-5.01555987054592
1696	4	rotation	1.102403	421	-5.90684667029473
1700	4	rotation	0.734325	422	6.10828088577005
1704	4	rotation	0.862435	423	1.65349872758526
1708	4	rotation	0.924537	424	-8.26695805498765
1712	4	rotation	1.000436	425	4.96237736766943
1716	4	rotation	0.848026	426	8.95536648777395
1720	4	rotation	1.2127	427	-2.52205663793839
1724	4	rotation	0.840719	428	-4.56240924098463
1728	4	rotation	0.800738	429	17.0470288944825
1732	4	rotation	1.228095	430	-13.9058522439347
1736	4	rotation	1.736557	431	9.82887612263261
1740	4	rotation	0.735183	432	-33.5158536978484
1744	4	rotation	0.983051	433	7.21815174588556
1748	4	rotation	0.783095	434	-1.62345688721006
1752	4	rotation	1.137115	435	-9.99256917730991
1756	4	rotation	0.761817	436	7.7992960673959
1760	4	rotation	1.001112	437	-13.5279014599352
1764	4	rotation	1.327067	438	-17.8394968605967
1768	4	rotation	0.780797	439	-15.5335150608087
1772	4	rotation	0.750961	440	9.28050999320043
