onset	duration	trial_type	response_time	trial_number	response_error
16	4	baseline	0.803434	1	-96.3401917459098
20	4	baseline	0.771913	2	27.036750939862
24	4	baseline	0.687554	3	-33.7259146355948
28	4	baseline	0.836037	4	-20.2239586917294
32	4	baseline	0.708461	5	16.5586117059807
36	4	baseline	0.781712	6	1.82097193235318
40	4	baseline	0.670154	7	-8.5028814097133
44	4	baseline	0.675082	8	9.95985766362041
48	4	baseline	0.688625	9	21.5085403006029
52	4	baseline	0.634189	10	-35.1981791329486
56	4	baseline	1.210306	11	-28.1484338136356
60	4	baseline	0.621822	12	-7.42601776370147
64	4	baseline	0.637152	13	0.815881208754637
68	4	baseline	1.633517	14	-32.7302711402692
72	4	baseline	0.842318	15	-30.2757519992516
76	4	baseline	0.749125	16	-23.6787657874206
80	4	baseline	0.792588	17	8.53167735624578
84	4	baseline	0.750482	18	-16.5827150031354
88	4	baseline	0.735853	19	-42.7121265835914
92	4	baseline	0.836444	20	-6.1041546761605
96	4	baseline	0.72526	21	-7.15200259719291
100	4	baseline	0.733128	22	-6.53233594442193
104	4	baseline	0.632818	23	-24.8801020874793
108	4	baseline	0.772108	24	-3.7100097491
112	4	baseline	0.972526	25	-14.0454648459234
116	4	baseline	0.819026	26	-12.7452922596368
120	4	baseline	0.939137	27	7.11263700901905
124	4	baseline	0.819796	28	-1.38533951287821
128	4	baseline	1.665483	29	11.9522946559495
132	4	baseline	1.036528	30	-18.3781212936108
136	4	baseline	0.775435	31	2.15039305118939
140	4	baseline	0.771819	32	15.6201625356057
144	4	baseline	0.604407	33	19.4368615563618
148	4	baseline	0.652219	34	-21.3420736032982
152	4	baseline	0.802576	35	-35.0631025895263
156	4	baseline	0.967128	36	-12.6021121037005
160	4	baseline	0.904527	37	-5.25866499806349
164	4	baseline	0.831541	38	10.7278655671008
168	4	baseline	1.012558	39	-9.18628401376143
172	4	baseline	0.896369	40	20.7989903821808
176	4	baseline	1.052664	41	1.48929538622945
180	4	baseline	0.792808	42	3.30593403141309
184	4	baseline	0.792621	43	9.15042612454494
188	4	baseline	0.849184	44	-23.3827149290681
192	4	baseline	0.788921	45	-3.12746997824682
196	4	baseline	0.738083	46	-0.613666793961206
200	4	baseline	0.800739	47	-27.7496788738003
204	4	baseline	0.640628	48	-8.22561996315332
208	4	baseline	0.713329	49	-31.1165719394386
212	4	baseline	0.720994	50	8.62257849021503
216	4	baseline	0.878005	51	-7.20556117706068
220	4	baseline	0.748246	52	38.8231004281353
224	4	baseline	0.79032	53	1.40863488103604
228	4	baseline	0.949677	54	-34.9570654005395
232	4	baseline	0.924662	55	30.0997658222334
236	4	baseline	0.772299	56	-0.978515209957822
240	4	baseline	0.823422	57	20.2457472921627
244	4	baseline	0.756541	58	-4.91552629630716
248	4	baseline	1.04834	59	-16.6264785303402
252	4	baseline	0.849873	60	-4.61309306515573
256	4	baseline	0.862106	61	12.3101962027
260	4	baseline	0.817066	62	-40.6285400939215
264	4	baseline	0.842975	63	-22.9262618498076
268	4	baseline	0.822561	64	12.2108052096293
272	4	baseline	0.838305	65	-42.9535001220875
276	4	baseline	0.947551	66	22.4927114348271
280	4	baseline	0.878211	67	-3.80329715400801
284	4	baseline	1.122282	68	-5.23166872937249
288	4	baseline	1.29848	69	-9.80931896907199
292	4	baseline	1.176938	70	-46.0668065560237
296	4	baseline	0.774258	71	-46.6065539834299
300	4	baseline	0.829357	72	25.9937236990294
304	4	baseline	0.884584	73	4.93439195432318
308	4	baseline	0.934608	74	22.376411502089
312	4	baseline	0.206024	75	125.670236426887
316	4	baseline	0.660812	76	5.98662523766756
320	4	baseline	0.882359	77	-33.0065901175477
324	4	baseline	1.236564	78	29.9874844618466
328	4	baseline	1.104275	79	-31.7188654349335
332	4	baseline	0.968757	80	-3.08287708789045
336	4	baseline	0.336753	81	159.725486623155
340	4	baseline	0.898586	82	-24.2233029917314
344	4	baseline	0.738731	83	-27.354242565933
348	4	baseline	0.656661	84	-5.58842992344507
352	4	baseline	1.237701	85	-66.0305644590224
356	4	baseline	0.850633	86	15.5430296901305
360	4	baseline	2.341432	87	-5.93556271969821
364	4	baseline	0.932751	88	-18.6104764026165
368	4	baseline	1.304944	89	-11.4189668731572
372	4	baseline	0.774678	90	2.03689645392496
376	4	baseline	0.665387	91	-18.2365222867086
380	4	baseline	0.638082	92	-22.2870509213747
384	4	baseline	0.860069	93	43.2406254519948
388	4	baseline	0.853225	94	29.8506366942045
392	4	baseline	0.842954	95	10.7999863041037
396	4	baseline	1.01005	96	-43.9235817841974
400	4	baseline	0.912282	97	17.2318039033263
404	4	baseline	1.255353	98	-2.66948835787102
408	4	baseline	1.502492	99	-51.9362449337065
412	4	baseline	1.182202	100	10.5983301397593
416	4	baseline	0.827638	101	-23.3711985753509
420	4	baseline	0.789374	102	-28.8091129497322
424	4	baseline	1.02466	103	40.9075472428063
428	4	baseline	0.9956	104	-12.2346763260798
432	4	baseline	0.898763	105	7.44636810290642
436	4	baseline	0.910828	106	-2.12471153814272
440	4	baseline	0.764697	107	37.8868945195059
444	4	baseline	0.850647	108	-4.71462595288203
448	4	baseline	1.078611	109	7.61345840519928
452	4	baseline	0.586673	110	49.009961606627
456	4	baseline	0.762499	111	-25.1787609414286
460	4	baseline	0.768498	112	-20.1028419168726
464	4	baseline	0.76618	113	21.5370073048464
468	4	baseline	1.941674	114	13.6729697264529
472	4	baseline	1.131729	115	-28.9874242424732
476	4	baseline	0.942577	116	-20.0132869114747
480	4	baseline	0.862519	117	6.8854240919925
484	4	baseline	0.694568	118	8.28661992042599
488	4	baseline	0.73805	119	-4.34250805227863
492	4	baseline	0.81452	120	6.42241250077691
496	4	rotation	0.803756	121	40.4300770829115
500	4	rotation	0.769597	122	62.8827728119236
504	4	rotation	0.853509	123	20.4294814057984
508	4	rotation	0.833204	124	46.6442132045928
512	4	rotation	0.869476	125	32.4816794902833
516	4	rotation	0.88911	126	35.1012611540522
520	4	rotation	0.803691	127	0.412149727474531
524	4	rotation	0.702195	128	50.6229338491473
528	4	rotation	0.919795	129	-9.03701756765665
532	4	rotation	0.844639	130	29.5428676679844
536	4	rotation	0.802022	131	-96.3401917459098
540	4	rotation	2.132701	132	29.5632390418137
544	4	rotation	0.859786	133	21.018778402594
548	4	rotation	0.726528	134	37.8869820973228
552	4	rotation	0.954429	135	33.8387174699305
556	4	rotation	0.794023	136	46.5370277014701
560	4	rotation	0.884865	137	33.1964335034147
564	4	rotation	0.9785	138	40.0971114913637
568	4	rotation	1.033106	139	37.3529644151028
572	4	rotation	1.216837	140	30.7710219766656
576	4	rotation	2.070037	141	44.3639174841321
580	4	rotation	0.863355	142	39.7734002203599
584	4	rotation	0.932788	143	44.2686938938629
588	4	rotation	0.988023	144	22.4594257136139
592	4	rotation	0.849717	145	84.6343393519642
596	4	rotation	0.786759	146	-23.5873765363179
600	4	rotation	0.850155	147	59.5284953723113
604	4	rotation	0.210163	148	-119.351967262684
608	4	rotation	0.811727	149	40.2357180042877
612	4	rotation	0.911853	150	-3.60577692470054
616	4	rotation	1.036448	151	64.6696083699683
620	4	rotation	1.009497	152	40.1872096839656
624	4	rotation	1.09582	153	34.2071781571582
628	4	rotation	0.890786	154	11.5428038911761
632	4	rotation	0.913788	155	34.5116736400183
636	4	rotation	0.935818	156	59.6174967469176
640	4	rotation	1.029597	157	16.1959351122655
644	4	rotation	0.711474	158	10.4484979235231
648	4	rotation	0.842888	159	66.0831266961855
652	4	rotation	0.880608	160	51.2690523249428
656	4	rotation	0.851701	161	6.65635096484697
660	4	rotation	0.897838	162	41.5423682561635
664	4	rotation	0.739787	163	23.3235337655592
668	4	rotation	0.979481	164	58.4589137723261
672	4	rotation	0.859136	165	72.7145091141407
676	4	rotation	0.918721	166	35.9665758966716
680	4	rotation	0.724727	167	16.1807106829765
684	4	rotation	0.934967	168	58.7616643846191
688	4	rotation	0.848935	169	35.9222531342547
692	4	rotation	0.8705	170	41.7285944485522
696	4	rotation	0.953789	171	62.270998983169
700	4	rotation	0.840161	172	-13.8797276187299
704	4	rotation	0.737637	173	26.9514168067608
708	4	rotation	0.940607	174	-10.1044609150365
712	4	rotation	1.358117	175	-10.5312613778525
716	4	rotation	0.893517	176	30.4114696771426
720	4	rotation	0.718697	177	-141.34019174591
724	4	rotation	0.748579	178	41.2551925074391
728	4	rotation	0.817412	179	56.7504888778271
732	4	rotation	0.772641	180	39.03288185336
736	4	rotation	0.761333	181	-8.64292858294866
740	4	rotation	0.993938	182	46.5930262728436
744	4	rotation	0.987777	183	-16.2700884977184
748	4	rotation	0.915031	184	49.8527542074366
752	4	rotation	0.922637	185	1.05515893890796
756	4	rotation	0.832015	186	2.5804721818389
760	4	rotation	0.76616	187	16.6793781821809
764	4	rotation	1.023248	188	63.1906769857275
768	4	rotation	0.879093	189	39.197500024838
772	4	rotation	1.496444	190	-17.8692010082455
776	4	rotation	1.128483	191	57.144431080016
780	4	rotation	0.810787	192	49.6056327766375
784	4	rotation	0.947058	193	46.5100750245285
788	4	rotation	1.388586	194	38.5266525636442
792	4	rotation	0.776763	195	30.3880027001575
796	4	rotation	0.778093	196	58.802556749225
800	4	rotation	0.768349	197	9.77155421828162
804	4	rotation	0.880008	198	-6.20092352518421
808	4	rotation	0.747094	199	-9.03632399686895
812	4	rotation	0.742374	200	38.2172853309808
816	4	rotation	0.669337	201	15.8809492870678
820	4	rotation	0.739841	202	39.7579188962981
824	4	rotation	0.861792	203	67.5114985523848
828	4	rotation	0.955075	204	-12.6732761786175
832	4	rotation	0.81425	205	15.5834744695903
836	4	rotation	1.706507	206	83.65980825409
840	4	rotation	1.358584	207	42.7290486622771
844	4	rotation	0.797476	208	25.3654577239286
848	4	rotation	0.814487	209	42.2285928271258
852	4	rotation	1.082226	210	22.1130561847375
856	4	rotation	0.973727	211	32.6760653597714
860	4	rotation	0.877701	212	44.1958632849825
864	4	rotation	1.176536	213	47.7458545478663
868	4	rotation	0.714291	214	3.83844525788782
872	4	rotation	0.783805	215	-9.05177886372206
876	4	rotation	0.89795	216	18.1785512716157
880	4	rotation	0.839155	217	53.269299433408
884	4	rotation	0.810438	218	14.5612974821561
888	4	rotation	1.086702	219	31.3250046330085
892	4	rotation	1.109847	220	40.9005618420984
896	4	rotation	1.392518	221	-3.08541075080518
900	4	rotation	2.336989	222	-5.70292787092315
904	4	rotation	1.362092	223	18.4688602252842
908	4	rotation	0.964538	224	-11.6360104109934
912	4	rotation	0.836803	225	12.2379486037504
916	4	rotation	1.546763	226	5.8053732032961
920	4	rotation	1.098453	227	-11.0423375627413
924	4	rotation	1.54244	228	64.7399137678884
928	4	rotation	1.161028	229	28.7333838022636
932	4	rotation	1.365186	230	-21.7798194829786
936	4	rotation	0.895356	231	52.4128383221898
940	4	rotation	0.832162	232	9.11991605928462
944	4	rotation	1.04927	233	56.6531923075631
948	4	rotation	0.891923	234	10.670822959526
952	4	rotation	1.205459	235	85.1972379424253
956	4	rotation	0.904371	236	21.9994384503002
960	4	rotation	0.944289	237	29.7137116680164
964	4	rotation	0.704115	238	8.81132741233461
968	4	rotation	0.620995	239	-17.3755774801686
972	4	rotation	0.898128	240	25.2747328311142
976	4	rotation	0.987958	241	51.0141390330089
980	4	rotation	0.921827	242	69.7205094177642
984	4	rotation	0.728522	243	8.87425335648876
988	4	rotation	0.649604	244	17.3781453991119
992	4	rotation	0.745195	245	61.8871018644916
996	4	rotation	1.077003	246	29.9724997880734
1000	4	rotation	0.882768	247	26.5654889808288
1004	4	rotation	0.674146	248	-9.65154475291172
1008	4	rotation	0.865214	249	-6.33686171144717
1012	4	rotation	0.754444	250	10.6550991453457
1016	4	rotation	1.322998	251	9.92010849475349
1020	4	rotation	0.901294	252	8.53902553619489
1024	4	rotation	0.768082	253	3.59643742153618
1028	4	rotation	0.933552	254	46.5062130253689
1032	4	rotation	1.195242	255	10.9341856781594
1036	4	rotation	1.229976	256	-21.9790038167714
1040	4	rotation	0.826758	257	1.94893900060129
1044	4	rotation	1.232989	258	33.8085203747025
1048	4	rotation	1.788619	259	-40.3615164871012
1052	4	rotation	0.758654	260	0.0605709521587475
1056	4	rotation	0.795597	261	31.367553406426
1060	4	rotation	0.817779	262	9.8649436331901
1064	4	rotation	0.929728	263	27.7487621904131
1068	4	rotation	0.757772	264	3.94638895443405
1072	4	rotation	0.811182	265	-22.0909042876992
1076	4	rotation	1.204968	266	30.1150600782267
1080	4	rotation	0.825278	267	1.69352823701422
1084	4	rotation	0.914921	268	18.9560209364187
1088	4	rotation	0.750281	269	-4.468450000429
1092	4	rotation	1.445379	270	23.4661418556131
1096	4	rotation	1.008388	271	46.4311114675746
1100	4	rotation	0.950028	272	-0.122699578606511
1104	4	rotation	0.789352	273	22.3449820433137
1108	4	rotation	0.85037	274	5.66647169918268
1112	4	rotation	1.209376	275	-19.16631776537
1116	4	rotation	1.185779	276	-11.3002638129443
1120	4	rotation	1.187805	277	27.9163530266101
1124	4	rotation	0.709162	278	10.9801908616013
1128	4	rotation	0.769898	279	-4.66480882018093
1132	4	rotation	1.044181	280	57.3762361278388
1136	4	rotation	0.872866	281	-10.8107161247794
1140	4	rotation	0.734289	282	1.45851730305661
1144	4	rotation	0.789285	283	23.3181249481166
1148	4	rotation	1.227258	284	51.6333840592528
1152	4	rotation	0.713289	285	22.1341282408658
1156	4	rotation	0.798541	286	-7.98097043912707
1160	4	rotation	0.917186	287	9.25945952238661
1164	4	rotation	0.744863	288	29.530581439374
1168	4	rotation	1.121362	289	47.2701640680204
1172	4	rotation	1.107936	290	-41.6205696683432
1176	4	rotation	0.783364	291	21.0812837081021
1180	4	rotation	0.885149	292	-0.852568787565972
1184	4	rotation	0.713809	293	-10.4067155263512
1188	4	rotation	0.777832	294	-18.1138723121268
1192	4	rotation	0.698062	295	-21.8176664697066
1196	4	rotation	1.136128	296	16.0536712190659
1200	4	rotation	0.658169	297	-9.65758486258194
1204	4	rotation	0.642266	298	4.26738051795268
1208	4	rotation	0.844828	299	-11.9989500462297
1212	4	rotation	0.657641	300	3.76409823220409
1216	4	rotation	0.64656	301	20.9309169361084
1220	4	rotation	0.988209	302	17.3255895584058
1224	4	rotation	0.985225	303	2.13538433077411
1228	4	rotation	1.028626	304	29.8510714946225
1232	4	rotation	0.728635	305	-7.56642050388175
1236	4	rotation	0.979008	306	19.3783185573501
1240	4	rotation	0.615544	307	16.6090615381149
1244	4	rotation	0.748857	308	10.5355822188573
1248	4	rotation	0.67499	309	-3.54000320095296
1252	4	rotation	1.16589	310	43.1593210677349
1256	4	rotation	1.797128	311	-37.9399863457155
1260	4	rotation	0.805149	312	20.090717573164
1264	4	rotation	0.847232	313	10.2078590106461
1268	4	rotation	1.409281	314	27.9002263170002
1272	4	rotation	0.79922	315	-12.3520790057481
1276	4	rotation	0.820743	316	-23.3600261696248
1280	4	rotation	0.755459	317	9.15793516951633
1284	4	rotation	1.588535	318	-9.30092520340812
1288	4	rotation	0.713642	319	15.1204781573889
1292	4	rotation	0.639292	320	-17.2763956752982
1296	4	rotation	1.328904	321	0.634266348071542
1300	4	rotation	0.658855	322	-10.8411252452533
1304	4	rotation	0.897865	323	7.38453182349159
1308	4	rotation	0.804015	324	17.5420276629418
1312	4	rotation	0.789965	325	-12.1260524180017
1316	4	rotation	0.727061	326	-5.61105203722551
1320	4	rotation	0.782148	327	15.7086313532138
1324	4	rotation	0.733671	328	17.0437426991987
1328	4	rotation	0.954199	329	15.7989809482849
1332	4	rotation	0.674389	330	-10.517679753791
1336	4	rotation	0.826514	331	-1.71041792905452
1340	4	rotation	0.628668	332	30.2228071975598
1344	4	rotation	0.792624	333	2.62534140152586
1348	4	rotation	0.678918	334	12.5708730285023
1352	4	rotation	0.668771	335	20.7671252073688
1356	4	rotation	0.684674	336	-11.3841099257474
1360	4	rotation	1.264908	337	-7.36955316116348
1364	4	rotation	0.852815	338	-0.76660134119751
1368	4	rotation	0.700692	339	17.3515916149356
1372	4	rotation	1.285823	340	18.598342005996
1376	4	rotation	0.677127	341	2.55794901475518
1380	4	rotation	0.721094	342	34.311335118163
1384	4	rotation	0.577183	343	6.42744001800506
1388	4	rotation	0.69871	344	8.61707501633856
1392	4	rotation	0.691895	345	15.358930603406
1396	4	rotation	1.02949	346	24.409003853552
1400	4	rotation	0.657451	347	20.4231026099059
1404	4	rotation	0.633398	348	8.90175319712551
1408	4	rotation	0.665034	349	-2.83580384485768
1412	4	rotation	0.712862	350	7.16803824321249
1416	4	rotation	0.80749	351	1.3298694954587
1420	4	rotation	0.729519	352	38.2399390052799
1424	4	rotation	0.633904	353	34.8916004630739
1428	4	rotation	0.768103	354	6.99126717966356
1432	4	rotation	0.573482	355	1.0670199694358
1436	4	rotation	0.634526	356	-8.84650871525275
1440	4	rotation	1.22821	357	25.5261890382048
1444	4	rotation	0.808272	358	-3.92035871333592
1448	4	rotation	0.998843	359	9.73484360908248
1452	4	rotation	0.724377	360	20.4457028999606
1456	4	rotation	0.5726	361	-29.5601586084602
1460	4	rotation	0.795088	362	30.9242654809378
1464	4	rotation	0.778659	363	-4.49047087968489
1468	4	rotation	0.61084	364	11.7734404094141
1472	4	rotation	0.79277	365	11.7236734627164
1476	4	rotation	0.646805	366	37.6086622797013
1480	4	rotation	0.952794	367	16.5987007612281
1484	4	rotation	1.2326	368	15.133951886204
1488	4	rotation	0.663419	369	2.88065946143677
1492	4	rotation	0.678918	370	2.09092045489031
1496	4	rotation	0.693143	371	3.36796025957908
1500	4	rotation	0.773286	372	0.385351612345058
1504	4	rotation	0.480222	373	9.74458657487576
1508	4	rotation	0.789699	374	41.8769565354458
1512	4	rotation	0.865436	375	13.8413848700833
1516	4	rotation	0.543935	376	8.99307085640446
1520	4	rotation	0.666646	377	10.1502491344897
1524	4	rotation	0.69769	378	-20.9659804597583
1528	4	rotation	1.06921	379	20.9584045645677
1532	4	rotation	0.68189	380	24.9047018562644
1536	4	rotation	0.645104	381	-19.5131641114634
1540	4	rotation	0.601466	382	27.5409048176597
1544	4	rotation	0.717247	383	26.5174433808062
1548	4	rotation	0.001773	384	0.417756152668845
1552	4	rotation	0.728818	385	-7.68326079886998
1556	4	rotation	0.776313	386	7.2595761473679
1560	4	rotation	0.809254	387	6.05056478813042
1564	4	rotation	0.921732	388	21.6332119651849
1568	4	rotation	0.752245	389	-24.3004626305287
1572	4	rotation	0.865707	390	17.8411384464528
1576	4	rotation	0.586472	391	5.93697811995726
1580	4	rotation	0.692207	392	-8.15327929973085
1584	4	rotation	0.596665	393	13.0223324013225
1588	4	rotation	0.864771	394	18.4949751161884
1592	4	rotation	0.47877	395	16.6686838924164
1596	4	rotation	0.492883	396	-6.71042367085053
1600	4	rotation	0.829089	397	19.5892099899233
1604	4	rotation	1.254516	398	0.468428200565894
1608	4	rotation	1.271003	399	73.396878610777
1612	4	rotation	0.591125	400	25.0222526743514
1616	4	rotation	1.092622	401	24.6206766082614
1620	4	rotation	0.707303	402	15.609496940475
1624	4	rotation	0.703351	403	3.71200192046433
1628	4	rotation	0.876361	404	-3.09499919540565
1632	4	rotation	0.665593	405	-9.08718920795669
1636	4	rotation	0.824741	406	-96.3401917459098
1640	4	rotation	0.557095	407	0.355901135103377
1644	4	rotation	0.557651	408	8.36507627969232
1648	4	rotation	0.563388	409	-3.11058094418141
1652	4	rotation	0.496124	410	1.91731703513911
1656	4	rotation	0.685537	411	-1.02058794831377
1660	4	rotation	0.785598	412	28.7743815879072
1664	4	rotation	1.198516	413	13.8947912487065
1668	4	rotation	0.679968	414	23.0617437829987
1672	4	rotation	1.143851	415	-16.6244998553827
1676	4	rotation	0.715923	416	2.7432928615504
1680	4	rotation	0.998191	417	-15.5029924101235
1684	4	rotation	0.798771	418	17.9129066510692
1688	4	rotation	0.576211	419	-14.3178584491814
1692	4	rotation	0.782507	420	58.1207603658175
1696	4	rotation	0.71456	421	-6.13010347413387
1700	4	rotation	0.920599	422	9.31755449781279
1704	4	rotation	0.814812	423	19.7352582807736
1708	4	rotation	0.571207	424	8.98677096817344
1712	4	rotation	0.600898	425	1.99374733146297
1716	4	rotation	0.696936	426	0.0680629842349786
1720	4	rotation	0.51726	427	-3.06542048779803
1724	4	rotation	1.049002	428	-14.2302148252566
1728	4	rotation	0.717339	429	17.9414103590489
1732	4	rotation	0.489169	430	4.37265697373979
1736	4	rotation	0.547539	431	-16.5129166126539
1740	4	rotation	1.012971	432	39.9806793737176
1744	4	rotation	0.729383	433	24.0535898754435
1748	4	rotation	0.519386	434	33.1590387759813
1752	4	rotation	0.830192	435	22.2136834782044
1756	4	rotation	0.573934	436	20.0432285854652
1760	4	rotation	0.637185	437	-6.39827560533305
1764	4	rotation	0.545753	438	5.5072836127603
1768	4	rotation	0.587793	439	9.32622022065851
1772	4	rotation	0.537854	440	12.4123050738414
