onset	duration	trial_type	response_time	trial_number	response_error
16	4	baseline	0.775059	1	-52.2980028075894
20	4	baseline	0.837477	2	10.6623754089642
24	4	baseline	0.768677	3	-34.1271649417086
28	4	baseline	0.696523	4	0.255353046399006
32	4	baseline	0.833043	5	8.71506343037653
36	4	baseline	0.765759	6	0.913648071186886
40	4	baseline	0.895595	7	0.220999078209527
44	4	baseline	0.779266	8	27.4923788376665
48	4	baseline	0.779836	9	9.89336805138186
52	4	baseline	0.74845	10	12.8743057783937
56	4	baseline	0.804186	11	-16.8016177777096
60	4	baseline	0.779584	12	13.7573824891822
64	4	baseline	0.715429	13	18.4084346138477
68	4	baseline	0.799184	14	-2.45126507970586
72	4	baseline	0.745671	15	16.1236149320333
76	4	baseline	0.65206	16	-15.0559549360882
80	4	baseline	1.032791	17	-6.13977097814809
84	4	baseline	1.212346	18	-7.3109863253429
88	4	baseline	0.885029	19	32.7305457252871
92	4	baseline	0.76626	20	-10.318937454045
96	4	baseline	0.912911	21	-31.5368624824313
100	4	baseline	0.661353	22	10.8532959211884
104	4	baseline	0.664243	23	7.50779661259392
108	4	baseline	0.629692	24	-4.07503867633714
112	4	baseline	0.763098	25	-5.8234256174619
116	4	baseline	0.745292	26	17.841433218479
120	4	baseline	0.83021	27	-0.623462386825025
124	4	baseline	0.776778	28	-2.66703401273435
128	4	baseline	1.057822	29	23.7141134049908
132	4	baseline	0.805951	30	-7.62372307258604
136	4	baseline	0.633318	31	5.91735424384141
140	4	baseline	0.65992	32	7.96027270189134
144	4	baseline	0.695277	33	-61.2088847807016
148	4	baseline	0.710508	34	-8.45419135637196
152	4	baseline	0.779901	35	11.9612884184172
156	4	baseline	0.808912	36	18.4646257461665
160	4	baseline	0.77784	37	-6.49540315806432
164	4	baseline	0.898457	38	8.27562210421007
168	4	baseline	1.0311	39	25.3514803224374
172	4	baseline	0.9244	40	11.8847813098688
176	4	baseline	0.603566	41	16.6112268802861
180	4	baseline	0.611393	42	8.60696744564555
184	4	baseline	0.605952	43	19.7902941068808
188	4	baseline	0.650464	44	-11.3582991541387
192	4	baseline	0.659084	45	3.94346662606341
196	4	baseline	0.724552	46	14.5332705331177
200	4	baseline	0.627684	47	-7.96230258191877
204	4	baseline	0.73208	48	1.46288971204183
208	4	baseline	0.575711	49	-19.3600659267504
212	4	baseline	0.80142	50	-6.40172761288504
216	4	baseline	0.661112	51	-12.4820519235874
220	4	baseline	0.86611	52	-9.17481367653032
224	4	baseline	0.762173	53	3.42797865294944
228	4	baseline	0.74558	54	53.8705424179022
232	4	baseline	0.771562	55	15.7964150105563
236	4	baseline	0.836417	56	-30.2907248908289
240	4	baseline	0.66121	57	23.4535802673084
244	4	baseline	0.599357	58	8.14488493280555
248	4	baseline	0.719353	59	22.9709053344171
252	4	baseline	0.553539	60	0.763050696256449
256	4	baseline	0.691069	61	0.291436889578103
260	4	baseline	0.717637	62	8.2902118720148
264	4	baseline	0.667359	63	-14.5436966382237
268	4	baseline	0.702824	64	3.80923578092894
272	4	baseline	1.031208	65	10.8816890287392
276	4	baseline	0.915603	66	40.1786628696582
280	4	baseline	0.719402	67	7.45823460212921
284	4	baseline	0.878006	68	-0.669544154889336
288	4	baseline	0.885922	69	5.23719902721092
292	4	baseline	0.744052	70	26.8465096960299
296	4	baseline	0.767695	71	7.82850622273069
300	4	baseline	0.627288	72	-14.7368459472142
304	4	baseline	0.662064	73	-7.88177181977106
308	4	baseline	0.69239	74	14.94126765815
312	4	baseline	0.811077	75	2.65689729026888
316	4	baseline	0.800713	76	17.4757116280172
320	4	baseline	0.714543	77	3.74740928245221
324	4	baseline	0.890352	78	2.95287541287718
328	4	baseline	0.688538	79	0.156266602046212
332	4	baseline	0.830636	80	1.87509614528312
336	4	baseline	0.82973	81	-22.2420620963164
340	4	baseline	0.606293	82	9.54064392917589
344	4	baseline	0.780404	83	26.8378103473133
348	4	baseline	0.686397	84	-9.06511674450404
352	4	baseline	0.944823	85	-15.5747734473015
356	4	baseline	0.72134	86	8.89483744429027
360	4	baseline	0.879339	87	-8.62041643802271
364	4	baseline	0.690065	88	-9.34403348107002
368	4	baseline	0.633005	89	-8.31503198503835
372	4	baseline	0.766921	90	-10.7391814939713
376	4	baseline	0.542806	91	47.4066573157963
380	4	baseline	0.711376	92	-0.627329669288507
384	4	baseline	0.629566	93	-6.27802386958068
388	4	baseline	0.606105	94	-18.6084153281548
392	4	baseline	0.629125	95	14.647439407463
396	4	baseline	0.666044	96	8.73454329204587
400	4	baseline	0.665412	97	-13.7511214032162
404	4	baseline	0.649632	98	4.54918209650199
408	4	baseline	0.627206	99	-27.8163992705783
412	4	baseline	0.713463	100	-19.9690609371227
416	4	baseline	0.773296	101	-3.56439963912661
420	4	baseline	0.687854	102	1.68660508536821
424	4	baseline	0.709314	103	-6.80367779433
428	4	baseline	0.748586	104	34.9027022686872
432	4	baseline	0.528927	105	-0.205714167279148
436	4	baseline	0.748461	106	12.248392824024
440	4	baseline	0.781268	107	36.721242461584
444	4	baseline	0.632856	108	-0.663201357954299
448	4	baseline	0.631696	109	20.3584405961707
452	4	baseline	0.664533	110	16.7666521820346
456	4	baseline	0.573247	111	9.35356767102471
460	4	baseline	0.878584	112	11.9129592092178
464	4	baseline	0.738307	113	-8.07053810947349
468	4	baseline	0.878768	114	5.187279219667
472	4	baseline	0.687034	115	-10.3473403193702
476	4	baseline	0.802283	116	-25.934028715788
480	4	baseline	0.716945	117	2.4403112400569
484	4	baseline	0.666925	118	15.2328021469044
488	4	baseline	0.804586	119	19.3686635106186
492	4	baseline	0.718135	120	1.43074154471235
496	4	rotation	0.659662	121	27.776771441147
500	4	rotation	0.744561	122	46.7779734107347
504	4	rotation	0.770247	123	77.4400590706097
508	4	rotation	0.712746	124	-8.48924942852476
512	4	rotation	1.27701	125	6.03161773924173
516	4	rotation	1.006655	126	-37.3776030706419
520	4	rotation	1.180662	127	13.2483411572539
524	4	rotation	0.825241	128	39.2296195452688
528	4	rotation	0.930567	129	1.18500646398967
532	4	rotation	1.033238	130	3.24456569422686
536	4	rotation	0.86132	131	-16.5412135893309
540	4	rotation	0.745055	132	-16.1104413750179
544	4	rotation	0.858807	133	-11.7584477266743
548	4	rotation	0.855994	134	38.6217100660028
552	4	rotation	0.530429	135	39.2982290234884
556	4	rotation	0.715498	136	21.0158940683567
560	4	rotation	1.23214	137	-42.1751194233669
564	4	rotation	0.893342	138	36.5961985629112
568	4	rotation	0.940708	139	-13.1103205254452
572	4	rotation	0.938225	140	35.4773040268671
576	4	rotation	0.80427	141	11.3741819320193
580	4	rotation	0.890055	142	11.8829009938931
584	4	rotation	0.771714	143	7.85205393724921
588	4	rotation	0.664666	144	10.6027816078194
592	4	rotation	0.778066	145	-3.18368948168271
596	4	rotation	0.913157	146	-0.370841529450622
600	4	rotation	0.830331	147	9.98842548667461
604	4	rotation	1.006479	148	45.3551380318473
608	4	rotation	1.009338	149	-14.7986363435069
612	4	rotation	0.833828	150	-8.02080728143551
616	4	rotation	0.858534	151	7.01922106868281
620	4	rotation	0.996794	152	11.1578400939972
624	4	rotation	0.915062	153	30.0548399245049
628	4	rotation	0.877893	154	-2.76619917376916
632	4	rotation	0.860117	155	-39.311302920457
636	4	rotation	1.256683	156	18.3343415420443
640	4	rotation	1.004391	157	-33.3303959455644
644	4	rotation	1.180708	158	-21.5756876052898
648	4	rotation	0.969081	159	1.2032327640788
652	4	rotation	1.148328	160	6.8918361365182
656	4	rotation	0.839519	161	22.0726236083771
660	4	rotation	0.955582	162	6.48167461275201
664	4	rotation	1.347301	163	21.6904626122485
668	4	rotation	1.11663	164	36.2782229114347
672	4	rotation	1.112719	165	-1.79769273358514
676	4	rotation	1.057164	166	-36.061056655514
680	4	rotation	0.939016	167	-43.0260401693758
684	4	rotation	1.026949	168	7.06641817549619
688	4	rotation	0.99449	169	-33.0609541648457
692	4	rotation	0.970378	170	35.0866934290381
696	4	rotation	0.824316	171	-3.06990152237339
700	4	rotation	0.943669	172	44.70966328066
704	4	rotation	1.135545	173	15.3329490309605
708	4	rotation	0.767886	174	18.1539960640666
712	4	rotation	1.170169	175	-5.84599019086202
716	4	rotation	0.71572	176	-2.30345411703381
720	4	rotation	1.027613	177	2.50326568604525
724	4	rotation	0.886553	178	-3.84322194327029
728	4	rotation	0.829996	179	2.4412207778079
732	4	rotation	1.066296	180	2.92155875558063
736	4	rotation	0.919048	181	23.0734591263972
740	4	rotation	1.033896	182	12.9367636941598
744	4	rotation	0.87747	183	8.50449241163789
748	4	rotation	0.664403	184	11.72536139506
752	4	rotation	0.718338	185	-3.50017950798975
756	4	rotation	0.880737	186	-15.3741579923102
760	4	rotation	0.744679	187	57.7096014002802
764	4	rotation	0.855609	188	-0.491760625732921
768	4	rotation	0.629317	189	-13.6556363026337
772	4	rotation	0.831787	190	-24.8636057860011
776	4	rotation	0.885049	191	7.04027033846919
780	4	rotation	0.890405	192	-33.3156205351447
784	4	rotation	1.152651	193	5.10263494065919
788	4	rotation	1.026554	194	40.6673205389357
792	4	rotation	1.049222	195	-4.03668812964988
796	4	rotation	0.800417	196	10.9628135307692
800	4	rotation	1.087528	197	20.7070134257294
804	4	rotation	1.146316	198	10.5158324614368
808	4	rotation	1.180875	199	-19.407461792882
812	4	rotation	0.950869	200	1.5423592793774
816	4	rotation	0.866341	201	5.71796579883536
820	4	rotation	0.912357	202	27.8492304505338
824	4	rotation	0.833331	203	-29.7930131933682
828	4	rotation	1.058025	204	-0.55921855123397
832	4	rotation	0.764704	205	12.307816801073
836	4	rotation	0.873922	206	13.7140320876283
840	4	rotation	0.860012	207	-14.5394766840373
844	4	rotation	0.715166	208	13.8907187571188
848	4	rotation	0.724996	209	32.123596916706
852	4	rotation	0.746077	210	20.1596686799964
856	4	rotation	0.718764	211	11.0629943048492
860	4	rotation	0.85408	212	-1.86025438784882
864	4	rotation	0.835782	213	24.3736413914719
868	4	rotation	1.054423	214	-45.2183478684248
872	4	rotation	0.99158	215	15.4562152375916
876	4	rotation	1.174136	216	-21.1924307943576
880	4	rotation	0.897118	217	54.9796398356084
884	4	rotation	0.950368	218	23.0314890085103
888	4	rotation	0.604196	219	28.5742646667822
892	4	rotation	1.025795	220	-41.8273680558188
896	4	rotation	0.869929	221	36.5202652845395
900	4	rotation	1.219769	222	-2.09610235528727
904	4	rotation	1.061897	223	25.8512832736599
908	4	rotation	1.085425	224	27.7916980750974
912	4	rotation	0.836945	225	4.6020494774206
916	4	rotation	0.941979	226	8.41645042889359
920	4	rotation	0.77911	227	6.01840984611958
924	4	rotation	0.817074	228	-8.75243056162834
928	4	rotation	0.836316	229	28.8752641913371
932	4	rotation	0.758071	230	-12.747773040072
936	4	rotation	0.877228	231	9.35607001046795
940	4	rotation	0.885373	232	-33.3927371334041
944	4	rotation	0.856747	233	-19.587748355369
948	4	rotation	0.776676	234	2.81114364916067
952	4	rotation	0.660953	235	15.3303877069547
956	4	rotation	0.993797	236	7.73130828539877
960	4	rotation	0.965312	237	14.3014110496292
964	4	rotation	0.909491	238	-5.64783811475905
968	4	rotation	0.771035	239	9.71683920894721
972	4	rotation	0.910152	240	-6.6892224385832
976	4	rotation	0.931317	241	28.7693279711966
980	4	rotation	0.729886	242	-29.859103053016
984	4	rotation	0.829737	243	-5.56324135178296
988	4	rotation	0.895536	244	38.9034875151537
992	4	rotation	0.82483	245	26.9004755196333
996	4	rotation	0.885926	246	5.93928480726156
1000	4	rotation	1.219948	247	-10.665802412599
1004	4	rotation	1.06496	248	-15.9600239696486
1008	4	rotation	1.011201	249	-14.3806505523092
1012	4	rotation	0.80259	250	-15.1119505075237
1016	4	rotation	1.223522	251	41.6365928828688
1020	4	rotation	0.911279	252	12.5667049819841
1024	4	rotation	0.933038	253	7.75955010251573
1028	4	rotation	0.717554	254	3.83361069811973
1032	4	rotation	0.767766	255	7.77498240501036
1036	4	rotation	0.743993	256	36.4663263229818
1040	4	rotation	0.94557	257	8.48572302821761
1044	4	rotation	0.764633	258	-6.50461869778029
1048	4	rotation	0.827879	259	-0.589496425177828
1052	4	rotation	0.832824	260	15.1719865202552
1056	4	rotation	0.911776	261	22.2181563030952
1060	4	rotation	0.76899	262	-19.2222930763712
1064	4	rotation	0.702761	263	11.0565673979089
1068	4	rotation	0.628785	264	10.0674084835993
1072	4	rotation	0.72228	265	5.15321819641165
1076	4	rotation	0.759199	266	-13.8763734635388
1080	4	rotation	1.143878	267	19.0198727657356
1084	4	rotation	0.645568	268	-16.8201573038824
1088	4	rotation	0.948757	269	-12.1186212268089
1092	4	rotation	0.874438	270	12.0886224808793
1096	4	rotation	0.943031	271	14.5505685298287
1100	4	rotation	0.894115	272	25.9538195646124
1104	4	rotation	0.882876	273	10.4236840396402
1108	4	rotation	0.659419	274	0.87393618300086
1112	4	rotation	0.912361	275	9.54521195425173
1116	4	rotation	0.82296	276	-0.741507351052662
1120	4	rotation	0.997664	277	-26.729385862579
1124	4	rotation	0.80161	278	-36.4455110237713
1128	4	rotation	1.277973	279	-17.9956883284046
1132	4	rotation	0.837018	280	-7.71643414040078
1136	4	rotation	0.82839	281	14.6638488488521
1140	4	rotation	0.989107	282	26.3946132921951
1144	4	rotation	0.758686	283	12.2929736194638
1148	4	rotation	0.825877	284	-6.18794627222308
1152	4	rotation	0.858807	285	15.2645464072907
1156	4	rotation	0.82899	286	32.5322671938831
1160	4	rotation	0.702856	287	3.99449715721166
1164	4	rotation	1.080043	288	15.1557288190188
1168	4	rotation	0.795908	289	10.3046755603441
1172	4	rotation	0.823098	290	-15.3939258047075
1176	4	rotation	0.992845	291	-5.4925899055886
1180	4	rotation	0.822264	292	33.1003379703917
1184	4	rotation	0.940325	293	18.0115055777514
1188	4	rotation	0.828569	294	-18.1923758360795
1192	4	rotation	0.892308	295	25.1466710490675
1196	4	rotation	0.764587	296	11.1203970055879
1200	4	rotation	0.831571	297	-7.44344448932373
1204	4	rotation	0.831563	298	7.31552056861371
1208	4	rotation	0.722086	299	15.8520522504378
1212	4	rotation	0.744986	300	-18.707479771322
1216	4	rotation	0.77405	301	18.5744765124835
1220	4	rotation	0.757293	302	-21.7568305176596
1224	4	rotation	1.054174	303	23.8615159813682
1228	4	rotation	0.878392	304	-15.3360045396838
1232	4	rotation	1.177996	305	8.29920147780252
1236	4	rotation	0.772493	306	8.61943228885536
1240	4	rotation	0.83661	307	-9.01399115917317
1244	4	rotation	0.880913	308	-9.73543087910418
1248	4	rotation	1.1731	309	24.3983204074569
1252	4	rotation	0.81794	310	-9.26627745845856
1256	4	rotation	0.742915	311	9.34849315098302
1260	4	rotation	1.118194	312	8.37285911071493
1264	4	rotation	1.164451	313	6.7827681845221
1268	4	rotation	0.777525	314	-11.4476955724143
1272	4	rotation	0.718571	315	-9.84343193748908
1276	4	rotation	0.894508	316	19.3855503781402
1280	4	rotation	1.137336	317	-6.63270468105872
1284	4	rotation	0.990454	318	-3.08612893990665
1288	4	rotation	0.800299	319	13.6060348413313
1292	4	rotation	0.680939	320	31.6757981672665
1296	4	rotation	0.708985	321	9.14551565681783
1300	4	rotation	0.714079	322	61.9787706055181
1304	4	rotation	1.042342	323	20.3630156033475
1308	4	rotation	1.005399	324	-9.30856355464853
1312	4	rotation	0.97044	325	4.46064000010622
1316	4	rotation	0.928307	326	17.8616777330908
1320	4	rotation	0.892823	327	16.8213508892825
1324	4	rotation	0.988429	328	-16.7348952889024
1328	4	rotation	1.001327	329	-5.37095461018771
1332	4	rotation	1.006899	330	12.6310422189671
1336	4	rotation	0.68643	331	-0.0853050473832726
1340	4	rotation	0.894269	332	9.94987505796684
1344	4	rotation	0.795701	333	27.2779166258576
1348	4	rotation	1.12234	334	11.3381179004771
1352	4	rotation	0.822293	335	80.6406458106887
1356	4	rotation	1.348573	336	-1.36019855131738
1360	4	rotation	0.990517	337	-30.7697772152787
1364	4	rotation	0.915537	338	15.5924629918263
1368	4	rotation	0.708293	339	28.7049595549209
1372	4	rotation	0.884342	340	27.8193209131163
1376	4	rotation	0.932476	341	-9.63907394850978
1380	4	rotation	0.856016	342	3.32916538154186
1384	4	rotation	1.064417	343	-6.81274464196669
1388	4	rotation	0.877689	344	0.975747821427652
1392	4	rotation	0.886474	345	29.2930322494839
1396	4	rotation	0.794444	346	20.0051565400017
1400	4	rotation	0.869414	347	15.4158759507842
1404	4	rotation	0.945047	348	7.67799024753602
1408	4	rotation	0.650502	349	0.13516452393242
1412	4	rotation	0.856923	350	7.23420114736857
1416	4	rotation	0.739637	351	-10.8411148030259
1420	4	rotation	1.052895	352	25.0464444645793
1424	4	rotation	0.902942	353	-18.2392898461346
1428	4	rotation	0.817603	354	-26.3570247263389
1432	4	rotation	0.855836	355	13.9332588282212
1436	4	rotation	0.909179	356	4.11347132065956
1440	4	rotation	0.912546	357	-17.6295658433206
1444	4	rotation	0.828103	358	13.782249620068
1448	4	rotation	0.800245	359	8.7928337680908
1452	4	rotation	0.751404	360	-2.08068671244498
1456	4	rotation	0.883146	361	11.8601833082227
1460	4	rotation	0.974411	362	-17.4979953202586
1464	4	rotation	1.086289	363	17.2058206559715
1468	4	rotation	1.143188	364	10.4482891601792
1472	4	rotation	1.11982	365	-22.5281802827595
1476	4	rotation	0.002176	366	14.111523998595
1480	4	rotation	0.879047	367	6.85415444745773
1484	4	rotation	0.783857	368	3.33601333597556
1488	4	rotation	0.978105	369	20.3165032492435
1492	4	rotation	0.859972	370	8.59673060985954
1496	4	rotation	0.768151	371	13.5838107826375
1500	4	rotation	0.850938	372	7.67080529915
1504	4	rotation	0.879238	373	15.5433217184371
1508	4	rotation	0.645058	374	-6.09044397006275
1512	4	rotation	0.652663	375	7.97547430280457
1516	4	rotation	1.134502	376	11.7692693871297
1520	4	rotation	0.734391	377	12.847550508651
1524	4	rotation	0.739485	378	-9.82171258029256
1528	4	rotation	0.709868	379	11.1452217632117
1532	4	rotation	0.968432	380	29.3590797085788
1536	4	rotation	0.710195	381	-6.20032547675094
1540	4	rotation	0.772874	382	27.9892298589254
1544	4	rotation	0.936635	383	-21.5792946520011
1548	4	rotation	0.655964	384	13.809736017595
1552	4	rotation	0.857605	385	2.74768782722397
1556	4	rotation	0.721388	386	-8.17379657815066
1560	4	rotation	0.82688	387	-6.45130799865066
1564	4	rotation	0.702519	388	16.8186444511721
1568	4	rotation	0.679607	389	-28.6458019128371
1572	4	rotation	0.911738	390	-6.44092491523343
1576	4	rotation	0.830849	391	0.266245660236558
1580	4	rotation	0.880557	392	-1.03076189105674
1584	4	rotation	0.82968	393	51.3825856385949
1588	4	rotation	0.835504	394	5.20588329724722
1592	4	rotation	0.77919	395	-1.45282136255331
1596	4	rotation	0.963392	396	-0.287458142778567
1600	4	rotation	0.999485	397	-4.17674247399755
1604	4	rotation	0.82336	398	-6.83242318208659
1608	4	rotation	0.657296	399	3.16958424884394
1612	4	rotation	0.65493	400	19.5954207532981
1616	4	rotation	0.916136	401	8.7196338059366
1620	4	rotation	0.677703	402	61.313605673618
1624	4	rotation	0.905792	403	49.3111468500938
1628	4	rotation	0.763966	404	-21.6503393456498
1632	4	rotation	0.773062	405	-19.1927687832302
1636	4	rotation	0.877981	406	-21.806226231858
1640	4	rotation	0.98045	407	-6.47618313232008
1644	4	rotation	1.171522	408	14.4851016743201
1648	4	rotation	0.909935	409	9.45446799207959
1652	4	rotation	0.828932	410	-16.0697800316015
1656	4	rotation	0.792736	411	28.1626769491262
1660	4	rotation	0.88845	412	-15.3782797909007
1664	4	rotation	0.764717	413	2.06548541504598
1668	4	rotation	1.13678	414	-34.6595878718159
1672	4	rotation	0.972462	415	5.00522314436521
1676	4	rotation	1.083021	416	5.41659546523649
1680	4	rotation	1.136645	417	7.38989817733537
1684	4	rotation	0.856177	418	9.0941641176329
1688	4	rotation	0.992941	419	-56.0698698165327
1692	4	rotation	0.885347	420	0.60874997737191
1696	4	rotation	1.116333	421	-4.71223463517686
1700	4	rotation	0.884677	422	2.11832650989804
1704	4	rotation	0.87339	423	-16.9606741018118
1708	4	rotation	0.738198	424	-45.6580871757398
1712	4	rotation	1.254528	425	2.40096511520577
1716	4	rotation	0.713782	426	2.19788561780737
1720	4	rotation	0.770354	427	25.9962058192796
1724	4	rotation	0.908981	428	27.7200378764571
1728	4	rotation	1.053227	429	9.69730731645566
1732	4	rotation	0.992383	430	27.1972664727058
1736	4	rotation	0.968914	431	-0.0932628629674006
1740	4	rotation	0.712943	432	11.7000445410724
1744	4	rotation	0.997956	433	-58.0042631986127
1748	4	rotation	0.889382	434	-0.78875670105315
1752	4	rotation	0.871851	435	-2.79376491720612
1756	4	rotation	1.253431	436	-1.4525644551948
1760	4	rotation	0.982973	437	-21.194991312544
1764	4	rotation	0.74513	438	-5.28106465262653
1768	4	rotation	0.851099	439	43.0980244101025
1772	4	rotation	1.008423	440	4.50203192010372
