onset	duration	trial_type	response_time	trial_number	response_error
16	4	baseline	1.52417	1	15.5166323574533
20	4	baseline	0.78819	2	7.42020181975405
24	4	baseline	0.938648	3	-9.04152363415002
28	4	baseline	0.873179	4	-5.60534545311841
32	4	baseline	0.77382	5	7.16954573261501
36	4	baseline	0.780429	6	7.80475820544327
40	4	baseline	0.81437	7	-15.2219494236339
44	4	baseline	1.216711	8	-12.4613198754408
48	4	baseline	0.974478	9	-4.82317837594884
52	4	baseline	1.172596	10	-20.1835582370226
56	4	baseline	0.867894	11	3.11985111358433
60	4	baseline	0.83379	12	20.4878593125466
64	4	baseline	1.031998	13	0.40482011102202
68	4	baseline	1.031673	14	-8.24623691812653
72	4	baseline	0.881692	15	2.88729249802484
76	4	baseline	0.987932	16	6.29533464999926
80	4	baseline	1.053789	17	-0.835363290069802
84	4	baseline	1.105739	18	-0.034779495198613
88	4	baseline	0.964114	19	5.68275434041497
92	4	baseline	0.831439	20	-11.0171936990749
96	4	baseline	0.741946	21	-0.4500977843243
100	4	baseline	0.93743	22	-14.0469363446048
104	4	baseline	1.120608	23	11.8991991545773
108	4	baseline	1.13761	24	20.1048332426319
112	4	baseline	1.033436	25	-12.9516046213236
116	4	baseline	0.990687	26	-10.0274684985057
120	4	baseline	1.136299	27	2.98891879112895
124	4	baseline	0.817996	28	4.00944690114
128	4	baseline	1.365611	29	-0.347267070830786
132	4	baseline	1.112487	30	-13.5728735068778
136	4	baseline	1.344458	31	-0.55850060034322
140	4	baseline	1.74644	32	-3.4016130936951
144	4	baseline	2.088217	33	-23.2955324502303
148	4	baseline	0.918223	34	-7.20208364901544
152	4	baseline	0.853427	35	18.7609392214265
156	4	baseline	1.248545	36	4.54755125835145
160	4	baseline	1.140285	37	-11.1926964694203
164	4	baseline	0.997337	38	0.955756834231762
168	4	baseline	1.124642	39	8.65163506940165
172	4	baseline	0.968126	40	-2.17799807772725
176	4	baseline	1.218425	41	-7.14178514537107
180	4	baseline	1.044206	42	9.42383173598642
184	4	baseline	1.499345	43	-11.0559952625689
188	4	baseline	1.624645	44	1.98999563712086
192	4	baseline	1.05065	45	7.26222018209839
196	4	baseline	1.206865	46	-22.0406318015933
200	4	baseline	0.980657	47	17.4288755634261
204	4	baseline	1.06457	48	12.5831654919687
208	4	baseline	0.999434	49	-6.27592554212172
212	4	baseline	1.057392	50	-0.5768754963109
216	4	baseline	1.094563	51	3.3427654289828
220	4	baseline	1.000224	52	-13.000369419538
224	4	baseline	1.193707	53	4.88368039850941
228	4	baseline	1.221219	54	-38.9933455184007
232	4	baseline	0.733364	55	22.018809281163
236	4	baseline	0.937524	56	8.84074650955511
240	4	baseline	0.761009	57	5.99502285426692
244	4	baseline	0.93306	58	2.03025293534155
248	4	baseline	0.829552	59	3.44587585957512
252	4	baseline	0.908381	60	3.10208856436045
256	4	baseline	0.892967	61	27.5158613556345
260	4	baseline	0.927855	62	-0.387837902352011
264	4	baseline	1.069071	63	0.340887071434088
268	4	baseline	1.237744	64	5.38989530545827
272	4	baseline	1.384464	65	14.1714435781701
276	4	baseline	0.857585	66	4.87688407300558
280	4	baseline	1.132867	67	7.93697317272644
284	4	baseline	1.873782	68	-4.34228177173948
288	4	baseline	0.901778	69	-12.4288964222226
292	4	baseline	0.900741	70	38.0971400098427
296	4	baseline	0.71216	71	-13.7832653082103
300	4	baseline	0.79642	72	8.36522685909898
304	4	baseline	0.996388	73	-11.6390704302687
308	4	baseline	1.682442	74	4.56488149485386
312	4	baseline	0.809144	75	25.2883726215556
316	4	baseline	1.119293	76	3.16740341428546
320	4	baseline	1.258549	77	-6.93989543461055
324	4	baseline	0.982185	78	-0.285207206408469
328	4	baseline	1.569408	79	5.7018600503935
332	4	baseline	1.107196	80	-13.71988407397
336	4	baseline	1.128431	81	-22.0991829400696
340	4	baseline	0.945476	82	3.16558137871457
344	4	baseline	0.928692	83	-25.9769792225095
348	4	baseline	1.143919	84	3.68445711036603
352	4	baseline	1.307519	85	-4.41010235114242
356	4	baseline	0.001999	86	-3.03044968108229
360	4	baseline	2.037141	87	-1.66929605958147
364	4	baseline	0.783805	88	-28.8527167680784
368	4	baseline	1.024856	89	17.3140423490146
372	4	baseline	1.399491	90	-8.48864418798897
376	4	baseline	1.226156	91	34.4275410419112
380	4	baseline	0.733871	92	-11.0442277051976
384	4	baseline	0.955474	93	-7.96890256689773
388	4	baseline	0.88585	94	-15.5983500068976
392	4	baseline	0.833202	95	5.90851884436617
396	4	baseline	1.047409	96	7.31731563103745
400	4	baseline	1.007416	97	-9.37682259295902
404	4	baseline	0.840111	98	-7.37679217447416
408	4	baseline	1.094273	99	3.85959236075213
412	4	baseline	0.987093	100	-21.1133828794462
416	4	baseline	0.776007	101	0.255116794891768
420	4	baseline	1.12538	102	-2.52280430590192
424	4	baseline	0.992476	103	-1.59186144274177
428	4	baseline	0.809974	104	-9.10132586426834
432	4	baseline	1.167821	105	11.3009229091399
436	4	baseline	1.014908	106	2.24149490524359
440	4	baseline	1.283284	107	-0.0344076608346286
444	4	baseline	1.068561	108	15.2739034241271
448	4	baseline	1.054726	109	-8.41660179196196
452	4	baseline	0.934497	110	-6.02213482162989
456	4	baseline	1.283155	111	-5.65511642619573
460	4	baseline	1.174763	112	-16.9742783242093
464	4	baseline	1.276092	113	-36.0894317731154
468	4	baseline	0.620632	114	-26.2490723742023
472	4	baseline	0.880885	115	-9.08189690408398
476	4	baseline	1.106409	116	6.11647201079948
480	4	baseline	0.862779	117	11.6608317509103
484	4	baseline	0.819844	118	22.9563428121209
488	4	baseline	0.899427	119	10.3427078885379
492	4	baseline	1.009026	120	-9.88638669143165
496	4	rotation	1.10688	121	30.9026438263992
500	4	rotation	0.776685	122	47.2307576473988
504	4	rotation	0.934112	123	36.9277338489632
508	4	rotation	0.944867	124	2.50592616621107
512	4	rotation	0.871124	125	-0.209271581038263
516	4	rotation	0.939419	126	-12.9459548134918
520	4	rotation	1.2287	127	-18.4952688306109
524	4	rotation	1.315687	128	7.82127038574161
528	4	rotation	0.748716	129	8.76971793807644
532	4	rotation	0.907843	130	-10.6887974438125
536	4	rotation	1.089811	131	25.7247745257739
540	4	rotation	1.611244	132	-141.34019174591
544	4	rotation	1.216132	133	4.45197107079498
548	4	rotation	0.736409	134	-0.0602479185593886
552	4	rotation	0.941204	135	-6.34019174590987
556	4	rotation	0.800965	136	31.4911313206751
560	4	rotation	0.965133	137	21.0900940904984
564	4	rotation	0.949957	138	-18.4263331059973
568	4	rotation	0.934261	139	2.00174325074442
572	4	rotation	0.962016	140	18.1364059042854
576	4	rotation	1.622672	141	-31.4133292609405
580	4	rotation	0.758552	142	36.9270087887113
584	4	rotation	0.710426	143	-1.82976849164744
588	4	rotation	0.796522	144	45.7170230219888
592	4	rotation	0.001918	145	3.63067366202978
596	4	rotation	0.901217	146	19.8689175155486
600	4	rotation	0.934733	147	5.5542323748532
604	4	rotation	1.064552	148	20.2594232022219
608	4	rotation	0.887906	149	22.4422859148475
612	4	rotation	1.000753	150	-7.38832612702013
616	4	rotation	0.849532	151	16.8294515256662
620	4	rotation	0.885144	152	-28.8731836450881
624	4	rotation	0.90653	153	-27.9748178965474
628	4	rotation	1.18894	154	20.170690597962
632	4	rotation	0.872475	155	6.08094309244224
636	4	rotation	1.168244	156	7.91922426508578
640	4	rotation	1.410069	157	14.9963297919702
644	4	rotation	1.597103	158	-0.36476602457016
648	4	rotation	1.055613	159	14.6318366018869
652	4	rotation	0.898952	160	-9.76346983594254
656	4	rotation	0.980999	161	10.8774330710233
660	4	rotation	0.888962	162	3.19050765752218
664	4	rotation	1.418454	163	22.4072611961727
668	4	rotation	1.219457	164	30.3479733097634
672	4	rotation	0.802107	165	13.6107827048901
676	4	rotation	0.811248	166	-1.46828980395739
680	4	rotation	1.02855	167	7.00941605112417
684	4	rotation	0.925389	168	-14.153877911691
688	4	rotation	0.974564	169	-8.62301986778326
692	4	rotation	1.571052	170	-129.328283017584
696	4	rotation	0.888963	171	1.89655752060081
700	4	rotation	0.817181	172	-25.9908995369473
704	4	rotation	0.920989	173	18.9620655042373
708	4	rotation	0.824674	174	1.07385816121965
712	4	rotation	0.781216	175	3.85536711834838
716	4	rotation	0.859044	176	-13.7411195602985
720	4	rotation	1.27096	177	12.4578707061192
724	4	rotation	1.018987	178	21.1885108252462
728	4	rotation	0.810172	179	33.454534369063
732	4	rotation	0.896665	180	5.86899802737758
736	4	rotation	1.202523	181	22.8017051139645
740	4	rotation	1.008741	182	5.23185330252164
744	4	rotation	0.848739	183	10.5631880390973
748	4	rotation	0.889116	184	-19.2225212092799
752	4	rotation	0.942498	185	10.323452011171
756	4	rotation	0.930118	186	2.53333732381328
760	4	rotation	0.950216	187	-1.25621263170137
764	4	rotation	1.038746	188	28.1106763732416
768	4	rotation	0.992477	189	11.3702397458427
772	4	rotation	0.82584	190	2.59246160195598
776	4	rotation	1.615189	191	-27.2213740269945
780	4	rotation	0.918195	192	17.0282752715988
784	4	rotation	0.981004	193	5.15668903603721
788	4	rotation	0.755604	194	27.3501193478465
792	4	rotation	0.78989	195	0.127547827663009
796	4	rotation	0.873206	196	-3.25827917397511
800	4	rotation	1.192984	197	-18.8051855250096
804	4	rotation	1.398643	198	9.65895591251986
808	4	rotation	1.064946	199	-5.98901227632949
812	4	rotation	1.481666	200	-9.71163913152695
816	4	rotation	0.744352	201	1.22071397557715
820	4	rotation	1.129935	202	39.1583585614999
824	4	rotation	0.965394	203	2.59406944105487
828	4	rotation	1.206169	204	6.23085183282514
832	4	rotation	1.094341	205	44.5026837686566
836	4	rotation	1.343296	206	33.5286212183063
840	4	rotation	1.427151	207	-8.99935020210939
844	4	rotation	1.310659	208	16.2291504401719
848	4	rotation	1.554757	209	21.458243562721
852	4	rotation	0.927177	210	6.42617114766334
856	4	rotation	1.174532	211	83.65980825409
860	4	rotation	1.131961	212	-8.91539596674476
864	4	rotation	0.966471	213	-14.7623429369115
868	4	rotation	1.074846	214	-2.65058942063258
872	4	rotation	0.932093	215	25.3866771016679
876	4	rotation	0.926559	216	-11.5870174378015
880	4	rotation	1.270356	217	5.15963705178309
884	4	rotation	1.071061	218	12.8425571205904
888	4	rotation	1.060605	219	4.01866286327776
892	4	rotation	1.589282	220	8.89821998063134
896	4	rotation	1.053934	221	10.67645458074
900	4	rotation	1.515797	222	-11.5105224144063
904	4	rotation	1.262438	223	16.8806601502728
908	4	rotation	1.100213	224	-3.16657890057335
912	4	rotation	1.304444	225	10.4486167826138
916	4	rotation	1.152684	226	-19.2290507780506
920	4	rotation	1.425591	227	12.4384643751879
924	4	rotation	1.030984	228	-13.9224443172915
928	4	rotation	1.187235	229	-42.6989666767786
932	4	rotation	1.350673	230	51.870108537442
936	4	rotation	0.947387	231	-14.2117510423056
940	4	rotation	0.810402	232	28.7440802229548
944	4	rotation	1.094379	233	-26.9469981290967
948	4	rotation	0.847727	234	25.0136759435357
952	4	rotation	1.164748	235	24.3926039677644
956	4	rotation	1.276306	236	7.94219351804598
960	4	rotation	1.212655	237	-15.8617053152013
964	4	rotation	1.383216	238	-26.8144422853123
968	4	rotation	1.48101	239	43.3263803297157
972	4	rotation	1.32284	240	4.13290920720156
976	4	rotation	1.189941	241	5.24317792738478
980	4	rotation	0.885402	242	-7.82393142676123
984	4	rotation	0.936629	243	-32.8178748611394
988	4	rotation	1.023928	244	22.8715032967735
992	4	rotation	1.493065	245	29.2915410355592
996	4	rotation	1.622	246	-18.0488942686915
1000	4	rotation	1.290914	247	40.8061684172958
1004	4	rotation	1.079118	248	5.72524878895856
1008	4	rotation	1.16937	249	-14.4617130654965
1012	4	rotation	0.91795	250	4.59474663576317
1016	4	rotation	1.383285	251	38.0964249316571
1020	4	rotation	1.389493	252	8.570104881662
1024	4	rotation	1.154751	253	-7.54484294140867
1028	4	rotation	1.510439	254	5.7891102747602
1032	4	rotation	1.109243	255	-2.75809518057592
1036	4	rotation	1.410786	256	-1.57115607588584
1040	4	rotation	1.43166	257	-3.2747674944247
1044	4	rotation	1.312624	258	2.46986651328364
1048	4	rotation	0.856894	259	-11.0005154678807
1052	4	rotation	1.742884	260	-11.4224797420694
1056	4	rotation	1.404686	261	4.09730069966214
1060	4	rotation	1.55345	262	-20.826615276935
1064	4	rotation	1.210737	263	30.0963896139155
1068	4	rotation	1.255069	264	-8.54376087039212
1072	4	rotation	1.341011	265	31.4964997258688
1076	4	rotation	1.817129	266	-104.658084731832
1080	4	rotation	0.961279	267	-2.66871842875715
1084	4	rotation	1.107458	268	-2.07239462199668
1088	4	rotation	0.997216	269	-18.1040400075417
1092	4	rotation	1.157138	270	0.658441358054356
1096	4	rotation	1.229836	271	-1.16183940507453
1100	4	rotation	1.338757	272	-2.73642811408253
1104	4	rotation	1.218872	273	-4.58245640982619
1108	4	rotation	1.18647	274	9.69160399563604
1112	4	rotation	1.330934	275	-7.72021814314585
1116	4	rotation	1.238748	276	14.6130987007171
1120	4	rotation	1.078886	277	-28.8280985040389
1124	4	rotation	1.329247	278	4.12529335928776
1128	4	rotation	1.265894	279	9.60579889952252
1132	4	rotation	1.071391	280	2.75451714920914
1136	4	rotation	1.523798	281	2.75029511411853
1140	4	rotation	1.172474	282	-16.944281820185
1144	4	rotation	1.1655	283	-19.2149253972238
1148	4	rotation	1.575787	284	-17.1261742761417
1152	4	rotation	1.336924	285	-2.60446557364755
1156	4	rotation	1.221025	286	37.4009429813412
1160	4	rotation	1.778079	287	-21.2145456133551
1164	4	rotation	1.283824	288	44.9116303923377
1168	4	rotation	1.475169	289	13.1467219992898
1172	4	rotation	1.42463	290	12.4981570433007
1176	4	rotation	1.251797	291	-41.6320754583099
1180	4	rotation	1.169582	292	-0.597016539474969
1184	4	rotation	0.922862	293	1.35263797391606
1188	4	rotation	1.662629	294	7.60445012388082
1192	4	rotation	1.108711	295	-33.4734218477658
1196	4	rotation	1.256527	296	14.8578366656382
1200	4	rotation	1.276688	297	-31.1997427846021
1204	4	rotation	1.420852	298	0.498478233841359
1208	4	rotation	1.009635	299	7.28994197739725
1212	4	rotation	1.056623	300	-9.16602210252658
1216	4	rotation	0.761377	301	4.91171922326512
1220	4	rotation	0.94163	302	17.1831369649678
1224	4	rotation	0.810347	303	-8.04030411073784
1228	4	rotation	1.024892	304	29.9766765037257
1232	4	rotation	0.866436	305	23.8976176695123
1236	4	rotation	0.933159	306	-26.8489645380603
1240	4	rotation	1.337101	307	-9.67235074937835
1244	4	rotation	1.521015	308	-5.09056543300764
1248	4	rotation	1.225139	309	-31.5954829617401
1252	4	rotation	0.898932	310	3.79037802667578
1256	4	rotation	1.102339	311	-1.94865140178977
1260	4	rotation	1.222605	312	7.08983486370284
1264	4	rotation	0.864882	313	12.8459749534507
1268	4	rotation	1.004643	314	17.8188113185232
1272	4	rotation	1.531953	315	-6.29993961026244
1276	4	rotation	0.861635	316	10.2656351094035
1280	4	rotation	1.042992	317	-23.1896593732408
1284	4	rotation	0.769512	318	-176.115967566294
1288	4	rotation	0.914515	319	-2.57098240409345
1292	4	rotation	1.126597	320	22.2854130386555
1296	4	rotation	0.962491	321	-13.4361780173149
1300	4	rotation	1.394337	322	3.23555030680726
1304	4	rotation	0.904713	323	-21.4784848853075
1308	4	rotation	1.033131	324	-51.3401917459099
1312	4	rotation	1.381912	325	3.04738649588919
1316	4	rotation	2.01435	326	13.092061626082
1320	4	rotation	0.796426	327	-3.97825432111249
1324	4	rotation	1.406066	328	8.51974358710016
1328	4	rotation	1.48304	329	-27.0123848998123
1332	4	rotation	1.498494	330	2.65356005976315
1336	4	rotation	1.067025	331	-28.3270938380448
1340	4	rotation	1.048417	332	10.9526670775438
1344	4	rotation	0.946336	333	-44.4575872686532
1348	4	rotation	1.159868	334	11.2733730241313
1352	4	rotation	1.230698	335	-2.70875285360142
1356	4	rotation	0.929236	336	20.9407481085149
1360	4	rotation	1.500903	337	19.267651910372
1364	4	rotation	0.788535	338	22.403956904239
1368	4	rotation	1.128492	339	-0.506323103526708
1372	4	rotation	2.036169	340	-2.23900430487117
1376	4	rotation	0.900099	341	-2.50562833317212
1380	4	rotation	0.859849	342	31.9958920475762
1384	4	rotation	0.787057	343	26.844133092928
1388	4	rotation	1.072313	344	16.5968964331276
1392	4	rotation	1.206708	345	-20.4676371335331
1396	4	rotation	0.961123	346	9.81324848822957
1400	4	rotation	0.979008	347	-19.0535229170107
1404	4	rotation	0.964368	348	25.1681571804025
1408	4	rotation	1.175096	349	-26.2641835563213
1412	4	rotation	1.206312	350	36.0757127560264
1416	4	rotation	1.231596	351	2.42013971747896
1420	4	rotation	1.023252	352	60.9379090768081
1424	4	rotation	1.176095	353	21.380293845319
1428	4	rotation	1.218232	354	25.2542399192603
1432	4	rotation	1.114299	355	-7.75152827470163
1436	4	rotation	1.395218	356	2.56628414322771
1440	4	rotation	1.176064	357	6.94338253243479
1444	4	rotation	1.170412	358	7.63308262055542
1448	4	rotation	1.636562	359	16.6790737302732
1452	4	rotation	1.272527	360	5.61307097018361
1456	4	rotation	1.447125	361	24.9632787667658
1460	4	rotation	1.21093	362	-10.0472190824204
1464	4	rotation	1.325833	363	12.4046392026362
1468	4	rotation	1.126467	364	23.0754752921874
1472	4	rotation	1.063718	365	21.316874694558
1476	4	rotation	1.247131	366	5.86407786735368
1480	4	rotation	1.117125	367	-20.7648426638732
1484	4	rotation	1.293828	368	7.72324548806725
1488	4	rotation	1.248904	369	-3.8735146187692
1492	4	rotation	1.26433	370	-3.1292484138533
1496	4	rotation	1.503932	371	8.89452640184532
1500	4	rotation	1.468719	372	28.8327172609149
1504	4	rotation	1.169129	373	6.77826384358654
1508	4	rotation	1.119536	374	-26.9089380687705
1512	4	rotation	1.115698	375	49.6121494910869
1516	4	rotation	1.240547	376	3.23424705918382
1520	4	rotation	1.06239	377	7.69003425204175
1524	4	rotation	1.242121	378	-10.3051012392638
1528	4	rotation	1.161237	379	12.6095889576975
1532	4	rotation	1.397393	380	-2.17150896252742
1536	4	rotation	1.149938	381	10.7670342156099
1540	4	rotation	1.485772	382	3.15836091070525
1544	4	rotation	1.216251	383	-1.40553234818423
1548	4	rotation	1.002292	384	29.2167261435534
1552	4	rotation	1.129503	385	-0.483722609590332
1556	4	rotation	1.465851	386	-15.2670482620135
1560	4	rotation	0.993611	387	58.6599226264997
1564	4	rotation	1.022334	388	11.6461792256354
1568	4	rotation	1.269656	389	18.3948602463858
1572	4	rotation	1.454331	390	-13.9073476889124
1576	4	rotation	1.155719	391	-5.68928361322259
1580	4	rotation	1.652687	392	5.67178875984321
1584	4	rotation	1.184491	393	20.6978528039054
1588	4	rotation	1.093713	394	5.14964682014675
1592	4	rotation	1.038348	395	5.56173509886775
1596	4	rotation	1.078302	396	13.7753698321794
1600	4	rotation	1.063353	397	6.52511108102513
1604	4	rotation	1.349844	398	-13.1252681440938
1608	4	rotation	1.371843	399	-3.60636632708861
1612	4	rotation	1.614311	400	-1.02860253964487
1616	4	rotation	1.677608	401	28.006895210366
1620	4	rotation	1.096725	402	-6.2666828379994
1624	4	rotation	1.047049	403	11.1908884172159
1628	4	rotation	1.088288	404	-13.2780714575014
1632	4	rotation	1.202255	405	-13.8874060281182
1636	4	rotation	1.333174	406	14.298328012202
1640	4	rotation	1.64741	407	9.88703568527279
1644	4	rotation	2.53097	408	56.5548774034458
1648	4	rotation	0.909433	409	12.0587461592025
1652	4	rotation	1.086204	410	-4.23331502679599
1656	4	rotation	0.92784	411	4.22966907124242
1660	4	rotation	0.896889	412	2.69629296316074
1664	4	rotation	0.861272	413	2.5917479212352
1668	4	rotation	1.077026	414	1.77180599998495
1672	4	rotation	1.068719	415	2.81929661355512
1676	4	rotation	0.839678	416	-12.5947325302106
1680	4	rotation	0.818553	417	16.2977784707293
1684	4	rotation	1.015957	418	-11.9329727490382
1688	4	rotation	0.920654	419	25.0551029197263
1692	4	rotation	1.133261	420	3.23990512314182
1696	4	rotation	0.884365	421	3.70061081053774
1700	4	rotation	0.913954	422	1.74426445214212
1704	4	rotation	1.218344	423	7.82511398963648
1708	4	rotation	1.323435	424	32.3032983197256
1712	4	rotation	0.991725	425	8.96434061718661
1716	4	rotation	0.945419	426	-13.2796381650504
1720	4	rotation	1.481402	427	-6.62964075328521
1724	4	rotation	1.226365	428	-14.0211329528199
1728	4	rotation	1.1968	429	12.6548766862475
1732	4	rotation	0.994574	430	5.57749511046117
1736	4	rotation	1.160814	431	6.8744979892748
1740	4	rotation	1.174252	432	30.617757583057
1744	4	rotation	1.35453	433	10.0587058278175
1748	4	rotation	1.168546	434	-7.16343620599732
1752	4	rotation	1.390499	435	15.8020865281816
1756	4	rotation	1.089503	436	27.788173797409
1760	4	rotation	1.173455	437	13.7451335647224
1764	4	rotation	1.036334	438	-8.81880865744781
1768	4	rotation	1.071784	439	26.6970129175933
1772	4	rotation	0.953245	440	-2.74685355221537
